Epoch	Learning Rate	Train Loss	Test Loss	Train Acc.	Test Acc.	Train Acc5.	Test Acc5.	
0	0.010000	0.620610	n/a	20.124000	n/a	68.946000	n/a	
1	0.010000	0.439231	n/a	35.524000	n/a	82.798000	n/a	
2	0.010000	0.397966	n/a	43.708000	n/a	85.956000	n/a	
3	0.010000	0.356271	n/a	50.228000	n/a	88.934000	n/a	
4	0.010000	0.328352	n/a	54.048000	n/a	90.756000	n/a	
5	0.010000	0.313305	n/a	56.660000	n/a	91.050000	n/a	
6	0.010000	0.294209	n/a	59.194000	n/a	92.288000	n/a	
7	0.010000	0.278150	n/a	61.646000	n/a	92.916000	n/a	
8	0.010000	0.265577	n/a	63.474000	n/a	93.178000	n/a	
9	0.010000	0.252689	n/a	65.156000	n/a	93.940000	n/a	
10	0.010000	0.241648	n/a	67.004000	n/a	94.522000	n/a	
11	0.010000	0.229973	n/a	68.576000	n/a	94.864000	n/a	
12	0.010000	0.219441	n/a	70.552000	n/a	95.160000	n/a	
13	0.010000	0.209596	n/a	71.872000	n/a	95.456000	n/a	
14	0.010000	0.202771	n/a	72.770000	n/a	95.638000	n/a	
15	0.010000	0.195224	n/a	73.902000	n/a	95.876000	n/a	
16	0.010000	0.188088	n/a	74.820000	n/a	95.926000	n/a	
17	0.010000	0.180071	n/a	76.008000	n/a	96.274000	n/a	
18	0.010000	0.173185	n/a	76.816000	n/a	96.596000	n/a	
19	0.010000	0.168699	n/a	77.616000	n/a	96.586000	n/a	
20	0.010000	0.164609	n/a	78.016000	n/a	96.718000	n/a	
21	0.010000	0.158613	n/a	78.844000	n/a	96.998000	n/a	
22	0.010000	0.158378	n/a	79.072000	n/a	96.928000	n/a	
23	0.010000	0.151938	n/a	79.904000	n/a	97.078000	n/a	
24	0.010000	0.148204	n/a	80.384000	n/a	97.216000	n/a	
25	0.010000	0.144956	n/a	81.008000	n/a	97.216000	n/a	
26	0.010000	0.140733	n/a	81.478000	n/a	97.394000	n/a	
27	0.010000	0.138194	n/a	81.938000	n/a	97.376000	n/a	
28	0.010000	0.135030	n/a	82.306000	n/a	97.426000	n/a	
29	0.010000	0.132190	n/a	82.714000	n/a	97.584000	n/a	
30	0.010000	0.130305	n/a	82.746000	n/a	97.536000	n/a	
31	0.010000	0.126940	n/a	83.338000	n/a	97.662000	n/a	
32	0.010000	0.123435	n/a	83.752000	n/a	97.752000	n/a	
33	0.010000	0.122220	n/a	83.980000	n/a	97.770000	n/a	
34	0.010000	0.119031	n/a	84.350000	n/a	97.908000	n/a	
35	0.010000	0.119153	n/a	84.496000	n/a	97.788000	n/a	
36	0.010000	0.115528	n/a	84.742000	n/a	97.956000	n/a	
37	0.010000	0.112435	n/a	85.322000	n/a	98.028000	n/a	
38	0.010000	0.112821	n/a	85.122000	n/a	97.964000	n/a	
39	0.010000	0.108651	n/a	85.822000	n/a	97.956000	n/a	
40	0.010000	0.106330	n/a	86.006000	n/a	98.034000	n/a	
41	0.010000	0.105744	n/a	86.054000	n/a	98.074000	n/a	
42	0.010000	0.103581	n/a	86.526000	n/a	98.014000	n/a	
43	0.010000	0.104222	n/a	86.320000	n/a	98.118000	n/a	
44	0.010000	0.100554	n/a	86.908000	n/a	98.174000	n/a	
45	0.010000	0.100261	n/a	86.806000	n/a	98.292000	n/a	
46	0.010000	0.098330	n/a	87.194000	n/a	98.186000	n/a	
47	0.010000	0.095418	n/a	87.540000	n/a	98.354000	n/a	
48	0.010000	0.094392	n/a	87.676000	n/a	98.310000	n/a	
49	0.010000	0.095060	n/a	87.616000	n/a	98.324000	n/a	
50	0.010000	0.093297	n/a	87.934000	n/a	98.280000	n/a	
51	0.010000	0.092078	n/a	87.906000	n/a	98.504000	n/a	
52	0.010000	0.090483	n/a	88.394000	n/a	98.358000	n/a	
53	0.010000	0.091179	n/a	88.044000	n/a	98.360000	n/a	
54	0.010000	0.088504	n/a	88.552000	n/a	98.376000	n/a	
55	0.010000	0.088722	n/a	88.504000	n/a	98.466000	n/a	
56	0.010000	0.087363	n/a	88.584000	n/a	98.480000	n/a	
57	0.010000	0.086291	n/a	88.674000	n/a	98.582000	n/a	
58	0.010000	0.086068	n/a	88.894000	n/a	98.490000	n/a	
59	0.010000	0.083824	n/a	89.226000	n/a	98.548000	n/a	
60	0.010000	0.082579	n/a	89.256000	n/a	98.540000	n/a	
61	0.010000	0.082155	n/a	89.384000	n/a	98.570000	n/a	
62	0.010000	0.080878	n/a	89.564000	n/a	98.600000	n/a	
63	0.010000	0.081286	n/a	89.558000	n/a	98.572000	n/a	
64	0.010000	0.080548	n/a	89.536000	n/a	98.602000	n/a	
65	0.010000	0.080110	n/a	89.652000	n/a	98.598000	n/a	
66	0.010000	0.077367	n/a	89.942000	n/a	98.662000	n/a	
67	0.010000	0.077941	n/a	89.892000	n/a	98.622000	n/a	
68	0.010000	0.076417	n/a	90.164000	n/a	98.612000	n/a	
69	0.010000	0.076801	n/a	90.054000	n/a	98.694000	n/a	
70	0.010000	0.074793	n/a	90.324000	n/a	98.624000	n/a	
71	0.010000	0.074824	n/a	90.228000	n/a	98.816000	n/a	
72	0.010000	0.074700	n/a	90.356000	n/a	98.676000	n/a	
73	0.010000	0.075608	n/a	90.144000	n/a	98.712000	n/a	
74	0.010000	0.073130	n/a	90.570000	n/a	98.728000	n/a	
75	0.010000	0.071984	n/a	90.756000	n/a	98.802000	n/a	
76	0.010000	0.072750	n/a	90.594000	n/a	98.684000	n/a	
77	0.010000	0.070599	n/a	90.878000	n/a	98.806000	n/a	
78	0.010000	0.071408	n/a	90.870000	n/a	98.806000	n/a	
79	0.010000	0.071154	n/a	90.994000	n/a	98.812000	n/a	
80	0.010000	0.070668	n/a	90.790000	n/a	98.842000	n/a	
81	0.010000	0.070139	n/a	90.888000	n/a	98.838000	n/a	
82	0.010000	0.069854	n/a	90.984000	n/a	98.858000	n/a	
83	0.010000	0.068879	n/a	91.030000	n/a	98.912000	n/a	
84	0.010000	0.069501	n/a	90.946000	n/a	98.776000	n/a	
85	0.010000	0.069997	n/a	90.922000	n/a	98.810000	n/a	
86	0.010000	0.068963	n/a	90.958000	n/a	98.884000	n/a	
87	0.010000	0.068138	n/a	91.230000	n/a	98.892000	n/a	
88	0.010000	0.068442	n/a	91.218000	n/a	98.904000	n/a	
89	0.010000	0.068363	n/a	91.188000	n/a	98.878000	n/a	
90	0.010000	0.066847	n/a	91.490000	n/a	98.934000	n/a	
91	0.010000	0.064733	n/a	91.690000	n/a	98.986000	n/a	
92	0.010000	0.065837	n/a	91.526000	n/a	98.974000	n/a	
93	0.010000	0.065448	n/a	91.484000	n/a	98.896000	n/a	
94	0.010000	0.064655	n/a	91.680000	n/a	98.940000	n/a	
95	0.010000	0.064371	n/a	91.624000	n/a	99.020000	n/a	
96	0.010000	0.064578	n/a	91.606000	n/a	99.012000	n/a	
97	0.010000	0.062349	n/a	92.088000	n/a	99.018000	n/a	
98	0.010000	0.065128	n/a	91.498000	n/a	99.076000	n/a	
99	0.010000	0.062525	n/a	91.950000	n/a	99.050000	n/a	
100	0.010000	0.060875	n/a	92.152000	n/a	99.048000	n/a	
101	0.010000	0.063193	n/a	91.924000	n/a	98.974000	n/a	
102	0.010000	0.062680	n/a	91.920000	n/a	98.990000	n/a	
103	0.010000	0.061624	n/a	92.024000	n/a	99.018000	n/a	
104	0.010000	0.060329	n/a	92.324000	n/a	99.050000	n/a	
105	0.010000	0.061966	n/a	92.004000	n/a	99.032000	n/a	
106	0.010000	0.059734	n/a	92.356000	n/a	99.108000	n/a	
107	0.010000	0.060817	n/a	92.254000	n/a	99.062000	n/a	
108	0.010000	0.060163	n/a	92.252000	n/a	99.078000	n/a	
109	0.010000	0.061060	n/a	92.174000	n/a	98.992000	n/a	
110	0.010000	0.059795	n/a	92.228000	n/a	99.094000	n/a	
111	0.010000	0.060855	n/a	92.238000	n/a	99.032000	n/a	
112	0.010000	0.057055	n/a	92.678000	n/a	99.108000	n/a	
113	0.010000	0.060313	n/a	92.396000	n/a	99.066000	n/a	
114	0.010000	0.058438	n/a	92.566000	n/a	99.056000	n/a	
115	0.010000	0.058048	n/a	92.548000	n/a	99.144000	n/a	
116	0.010000	0.058321	n/a	92.512000	n/a	99.078000	n/a	
117	0.010000	0.057974	n/a	92.688000	n/a	99.054000	n/a	
118	0.010000	0.056480	n/a	92.662000	n/a	99.150000	n/a	
119	0.010000	0.059506	n/a	92.326000	n/a	99.078000	n/a	
120	0.010000	0.058517	n/a	92.390000	n/a	99.162000	n/a	
121	0.010000	0.059036	n/a	92.480000	n/a	98.970000	n/a	
122	0.010000	0.058895	n/a	92.510000	n/a	99.094000	n/a	
123	0.010000	0.056771	n/a	92.680000	n/a	99.194000	n/a	
124	0.010000	0.056695	n/a	92.710000	n/a	99.222000	n/a	
125	0.010000	0.058069	n/a	92.538000	n/a	99.164000	n/a	
126	0.010000	0.056382	n/a	92.680000	n/a	99.150000	n/a	
127	0.010000	0.057059	n/a	92.788000	n/a	99.128000	n/a	
128	0.010000	0.056872	n/a	92.816000	n/a	99.150000	n/a	
129	0.010000	0.057037	n/a	92.756000	n/a	99.192000	n/a	
130	0.010000	0.055313	n/a	92.942000	n/a	99.164000	n/a	
131	0.010000	0.056019	n/a	92.876000	n/a	99.198000	n/a	
132	0.010000	0.056475	n/a	92.784000	n/a	99.190000	n/a	
133	0.010000	0.055392	n/a	92.826000	n/a	99.190000	n/a	
134	0.010000	0.055145	n/a	92.946000	n/a	99.204000	n/a	
135	0.010000	0.053987	n/a	93.086000	n/a	99.200000	n/a	
136	0.010000	0.054894	n/a	93.132000	n/a	99.176000	n/a	
137	0.010000	0.056327	n/a	92.796000	n/a	99.096000	n/a	
138	0.010000	0.055303	n/a	92.942000	n/a	99.206000	n/a	
139	0.010000	0.054945	n/a	92.998000	n/a	99.182000	n/a	
140	0.010000	0.055230	0.089769	92.916000	88.350000	99.222000	98.490000	
141	0.010000	0.052692	0.095118	93.308000	87.740000	99.280000	97.860000	
142	0.010000	0.053991	0.093585	93.164000	88.040000	99.138000	97.920000	
143	0.010000	0.052092	0.100901	93.260000	87.360000	99.232000	97.230000	
144	0.010000	0.052628	0.107390	93.352000	86.870000	99.198000	96.990000	
145	0.010000	0.053035	0.097674	93.272000	87.780000	99.218000	97.690000	
146	0.010000	0.053309	0.098672	93.200000	87.300000	99.206000	97.750000	
147	0.010000	0.053437	0.107962	93.112000	86.490000	99.200000	97.010000	
148	0.010000	0.053274	0.107752	93.080000	86.680000	99.268000	98.610000	
149	0.010000	0.052625	0.096921	93.314000	87.400000	99.244000	98.030000	
150	0.001000	0.031548	0.070102	95.934000	90.680000	99.700000	98.700000	
151	0.001000	0.025272	0.068051	96.860000	90.840000	99.758000	98.680000	
152	0.001000	0.023337	0.068720	97.166000	90.850000	99.764000	98.710000	
153	0.001000	0.021194	0.067932	97.404000	90.980000	99.792000	98.410000	
154	0.001000	0.020706	0.067245	97.574000	91.170000	99.796000	98.360000	
155	0.001000	0.019888	0.067490	97.594000	91.250000	99.780000	98.890000	
156	0.001000	0.019084	0.068824	97.704000	91.000000	99.832000	98.570000	
157	0.001000	0.018253	0.068344	97.832000	91.410000	99.834000	98.620000	
158	0.001000	0.018304	0.068228	97.858000	91.070000	99.820000	98.690000	
159	0.001000	0.017289	0.068010	97.890000	91.310000	99.838000	98.630000	
160	0.001000	0.017007	0.066985	98.090000	91.310000	99.830000	98.560000	
161	0.001000	0.016490	0.067825	98.068000	91.310000	99.860000	98.430000	
162	0.001000	0.016086	0.068562	98.152000	91.100000	99.862000	98.470000	
163	0.001000	0.015285	0.068257	98.294000	91.200000	99.888000	98.570000	
164	0.001000	0.015037	0.068197	98.232000	91.310000	99.852000	98.390000	
165	0.001000	0.014614	0.070118	98.346000	91.290000	99.850000	98.560000	
166	0.001000	0.014680	0.068413	98.298000	91.280000	99.864000	98.400000	
167	0.001000	0.014889	0.068552	98.294000	91.460000	99.872000	98.460000	
168	0.001000	0.013919	0.068731	98.500000	91.300000	99.834000	98.520000	
169	0.001000	0.013794	0.069921	98.454000	91.150000	99.866000	98.380000	
170	0.001000	0.013622	0.069754	98.416000	91.110000	99.870000	98.460000	
171	0.001000	0.013386	0.070116	98.454000	91.040000	99.856000	98.050000	
172	0.001000	0.013473	0.069985	98.484000	91.180000	99.896000	98.530000	
173	0.001000	0.012618	0.069644	98.600000	91.220000	99.882000	98.260000	
174	0.001000	0.012538	0.071034	98.592000	91.180000	99.902000	98.360000	
175	0.001000	0.012291	0.070592	98.668000	91.200000	99.900000	98.320000	
176	0.001000	0.012351	0.071091	98.592000	91.220000	99.886000	98.280000	
177	0.001000	0.012054	0.071535	98.662000	91.200000	99.900000	98.100000	
178	0.001000	0.011917	0.072713	98.648000	90.910000	99.892000	98.240000	
179	0.001000	0.011470	0.071783	98.754000	90.890000	99.908000	98.320000	
180	0.001000	0.011296	0.071173	98.780000	91.160000	99.890000	98.160000	
181	0.001000	0.011005	0.070739	98.756000	91.160000	99.906000	98.270000	
182	0.001000	0.011273	0.070868	98.778000	91.250000	99.882000	97.980000	
183	0.001000	0.011305	0.070826	98.756000	91.080000	99.898000	98.090000	
184	0.001000	0.010773	0.072511	98.866000	91.110000	99.908000	98.120000	
185	0.001000	0.010856	0.071826	98.804000	91.040000	99.878000	98.080000	
186	0.001000	0.010685	0.071310	98.856000	91.200000	99.900000	98.190000	
187	0.001000	0.010501	0.071705	98.838000	91.110000	99.898000	98.260000	
188	0.001000	0.010131	0.071833	98.926000	91.190000	99.912000	98.050000	
189	0.001000	0.010442	0.072687	98.838000	91.000000	99.926000	98.110000	
190	0.001000	0.010411	0.073724	98.816000	90.820000	99.910000	98.060000	
191	0.001000	0.009830	0.072234	98.976000	91.200000	99.906000	97.860000	
192	0.001000	0.009748	0.072447	98.962000	91.160000	99.916000	97.960000	
193	0.001000	0.009783	0.072676	98.940000	91.120000	99.926000	98.090000	
194	0.001000	0.009829	0.073122	98.932000	91.010000	99.914000	98.190000	
195	0.001000	0.009412	0.074479	99.010000	90.970000	99.920000	98.100000	
196	0.001000	0.009656	0.073446	98.926000	90.980000	99.908000	98.070000	
197	0.001000	0.008837	0.073224	99.078000	91.120000	99.932000	98.140000	
198	0.001000	0.009367	0.073386	99.028000	91.060000	99.922000	97.990000	
199	0.001000	0.009198	0.072862	99.026000	91.000000	99.922000	98.090000	
200	0.001000	0.009497	0.073165	98.964000	90.920000	99.920000	97.810000	
201	0.001000	0.009189	0.074143	99.010000	90.940000	99.920000	98.000000	
202	0.001000	0.008743	0.073799	99.058000	90.950000	99.934000	97.890000	
203	0.001000	0.009014	0.072475	99.092000	91.090000	99.926000	98.100000	
204	0.001000	0.008672	0.072616	99.098000	91.130000	99.914000	97.930000	
205	0.001000	0.008640	0.075864	99.060000	90.850000	99.936000	97.680000	
206	0.001000	0.008524	0.072710	99.148000	91.050000	99.906000	97.910000	
207	0.001000	0.008614	0.072823	99.106000	91.220000	99.940000	97.920000	
208	0.001000	0.008356	0.072774	99.126000	91.210000	99.938000	97.990000	
209	0.001000	0.008288	0.072302	99.178000	91.250000	99.942000	97.990000	
210	0.001000	0.007996	0.073730	99.178000	91.070000	99.922000	97.860000	
211	0.001000	0.007912	0.073369	99.244000	91.020000	99.942000	97.740000	
212	0.001000	0.008276	0.074075	99.166000	90.910000	99.916000	98.030000	
213	0.001000	0.007681	0.073347	99.226000	91.190000	99.934000	97.950000	
214	0.001000	0.008035	0.073703	99.180000	91.110000	99.954000	97.910000	
215	0.001000	0.007921	0.074166	99.182000	91.250000	99.928000	97.820000	
216	0.001000	0.007570	0.073475	99.246000	91.240000	99.928000	97.770000	
217	0.001000	0.007987	0.072346	99.184000	91.280000	99.932000	97.920000	
218	0.001000	0.007389	0.072674	99.258000	91.080000	99.942000	97.820000	
219	0.001000	0.007303	0.073332	99.278000	91.360000	99.948000	97.710000	
220	0.001000	0.007646	0.072240	99.230000	91.260000	99.954000	98.010000	
221	0.001000	0.007724	0.072263	99.224000	91.240000	99.948000	97.960000	
222	0.001000	0.007391	0.074027	99.252000	91.070000	99.952000	97.660000	
223	0.001000	0.007046	0.073162	99.312000	91.330000	99.950000	97.900000	
224	0.001000	0.007401	0.073648	99.226000	91.140000	99.940000	97.830000	
225	0.000100	0.006527	0.073223	99.360000	91.180000	99.964000	97.790000	
226	0.000100	0.005723	0.072628	99.444000	91.340000	99.950000	97.780000	
227	0.000100	0.006154	0.072431	99.384000	91.390000	99.948000	97.870000	
228	0.000100	0.005897	0.072442	99.474000	91.440000	99.948000	97.910000	
229	0.000100	0.006151	0.072463	99.416000	91.320000	99.954000	97.800000	
230	0.000100	0.005899	0.072203	99.438000	91.410000	99.964000	97.840000	
231	0.000100	0.005995	0.072344	99.440000	91.380000	99.956000	97.850000	
232	0.000100	0.005898	0.072435	99.444000	91.440000	99.950000	97.850000	
233	0.000100	0.005448	0.072606	99.514000	91.330000	99.958000	97.870000	
234	0.000100	0.005490	0.072405	99.512000	91.380000	99.954000	97.840000	
235	0.000100	0.005428	0.072837	99.502000	91.320000	99.964000	97.880000	
236	0.000100	0.005437	0.072925	99.506000	91.300000	99.956000	97.760000	
237	0.000100	0.005342	0.072666	99.520000	91.300000	99.952000	97.810000	
238	0.000100	0.005515	0.072550	99.484000	91.390000	99.956000	97.740000	
239	0.000100	0.005421	0.072569	99.514000	91.410000	99.960000	97.930000	
240	0.000100	0.005396	0.072113	99.492000	91.390000	99.942000	97.880000	
241	0.000100	0.005463	0.072231	99.508000	91.470000	99.950000	97.810000	
242	0.000100	0.005765	0.072090	99.458000	91.440000	99.946000	97.820000	
243	0.000100	0.005481	0.071861	99.460000	91.420000	99.970000	97.820000	
244	0.000100	0.005362	0.072329	99.512000	91.390000	99.952000	97.770000	
245	0.000100	0.005484	0.072313	99.492000	91.380000	99.962000	97.790000	
246	0.000100	0.005367	0.072290	99.522000	91.360000	99.954000	97.870000	
247	0.000100	0.005308	0.072553	99.528000	91.270000	99.950000	97.810000	
248	0.000100	0.005289	0.072260	99.532000	91.260000	99.952000	97.820000	
249	0.000100	0.005390	0.072286	99.486000	91.470000	99.970000	97.810000	
250	0.000100	0.005374	0.072330	99.512000	91.400000	99.964000	97.880000	
251	0.000100	0.005201	0.072595	99.526000	91.400000	99.970000	97.880000	
252	0.000100	0.005254	0.072336	99.526000	91.300000	99.962000	97.880000	
253	0.000100	0.005425	0.072526	99.514000	91.250000	99.942000	97.700000	
254	0.000100	0.005394	0.072518	99.512000	91.360000	99.938000	97.870000	
255	0.000100	0.005476	0.072708	99.508000	91.390000	99.962000	97.810000	
256	0.000100	0.005077	0.072669	99.514000	91.410000	99.960000	97.880000	
257	0.000100	0.005222	0.072624	99.532000	91.350000	99.950000	97.740000	
258	0.000100	0.005229	0.072210	99.528000	91.360000	99.954000	97.830000	
259	0.000100	0.005370	0.072242	99.558000	91.370000	99.938000	97.890000	
260	0.000100	0.005345	0.072402	99.478000	91.360000	99.964000	97.820000	
261	0.000100	0.005130	0.072375	99.540000	91.390000	99.970000	97.820000	
262	0.000100	0.005094	0.072559	99.544000	91.400000	99.956000	97.730000	
263	0.000100	0.004996	0.072379	99.568000	91.480000	99.954000	97.770000	
264	0.000100	0.005030	0.072378	99.556000	91.340000	99.958000	97.800000	
265	0.000100	0.004907	0.072446	99.614000	91.420000	99.950000	97.850000	
266	0.000100	0.005113	0.072574	99.562000	91.380000	99.938000	97.720000	
267	0.000100	0.004923	0.072192	99.570000	91.430000	99.958000	97.730000	
268	0.000100	0.005096	0.072355	99.530000	91.370000	99.956000	97.800000	
269	0.000100	0.004973	0.072608	99.568000	91.380000	99.936000	97.740000	
270	0.000100	0.004998	0.072627	99.578000	91.370000	99.954000	97.740000	
271	0.000100	0.005117	0.072722	99.550000	91.420000	99.960000	97.790000	
272	0.000100	0.005254	0.072720	99.558000	91.240000	99.950000	97.700000	
273	0.000100	0.005036	0.073180	99.590000	91.140000	99.952000	97.770000	
274	0.000100	0.005026	0.073232	99.582000	91.390000	99.964000	97.660000	
275	0.000100	0.005038	0.072606	99.550000	91.370000	99.954000	97.750000	
276	0.000100	0.004937	0.073229	99.564000	91.300000	99.972000	97.650000	
277	0.000100	0.004786	0.072956	99.622000	91.410000	99.962000	97.710000	
278	0.000100	0.004890	0.072292	99.550000	91.430000	99.968000	97.750000	
279	0.000100	0.004899	0.072571	99.586000	91.420000	99.962000	97.810000	
280	0.000100	0.005043	0.073113	99.558000	91.320000	99.954000	97.670000	
281	0.000100	0.005012	0.072770	99.586000	91.360000	99.958000	97.760000	
282	0.000100	0.004931	0.073032	99.572000	91.310000	99.956000	97.690000	
283	0.000100	0.005155	0.072759	99.540000	91.300000	99.972000	97.760000	
284	0.000100	0.004826	0.072603	99.586000	91.330000	99.958000	97.840000	
285	0.000100	0.004743	0.072778	99.618000	91.310000	99.958000	97.760000	
286	0.000100	0.004928	0.073041	99.568000	91.250000	99.952000	97.760000	
287	0.000100	0.004832	0.072870	99.576000	91.420000	99.966000	97.800000	
288	0.000100	0.004877	0.072522	99.572000	91.330000	99.974000	97.700000	
289	0.000100	0.004856	0.072424	99.594000	91.300000	99.954000	97.730000	
290	0.000100	0.004916	0.073073	99.594000	91.350000	99.952000	97.710000	
291	0.000100	0.004910	0.072573	99.558000	91.430000	99.962000	97.730000	
292	0.000100	0.004998	0.072678	99.558000	91.330000	99.956000	97.690000	
293	0.000100	0.004739	0.073170	99.604000	91.250000	99.968000	97.740000	
294	0.000100	0.004586	0.072949	99.610000	91.280000	99.954000	97.840000	
295	0.000100	0.005076	0.073139	99.556000	91.270000	99.960000	97.710000	
296	0.000100	0.004790	0.072968	99.604000	91.270000	99.956000	97.790000	
297	0.000100	0.004841	0.073476	99.570000	91.270000	99.964000	97.770000	
298	0.000100	0.004999	0.073483	99.534000	91.280000	99.962000	97.700000	
299	0.000100	0.004968	0.073148	99.550000	91.260000	99.960000	97.730000	
