Epoch	Learning Rate	Train Loss	Test Loss	Train Acc.	Test Acc.	Train Acc5.	Test Acc5.	
0	0.010000	1.668475	n/a	9.934000	n/a	50.200000	n/a	
1	0.010000	0.847120	n/a	11.754000	n/a	65.258000	n/a	
2	0.010000	0.463658	n/a	30.546000	n/a	81.186000	n/a	
3	0.010000	0.418761	n/a	39.502000	n/a	84.984000	n/a	
4	0.010000	0.385732	n/a	45.142000	n/a	86.956000	n/a	
5	0.010000	0.358226	n/a	49.784000	n/a	88.468000	n/a	
6	0.010000	0.326346	n/a	53.952000	n/a	90.450000	n/a	
7	0.010000	0.310966	n/a	56.546000	n/a	91.140000	n/a	
8	0.010000	0.296524	n/a	58.906000	n/a	91.732000	n/a	
9	0.010000	0.280818	n/a	61.396000	n/a	92.246000	n/a	
10	0.010000	0.265966	n/a	63.076000	n/a	92.984000	n/a	
11	0.010000	0.256977	n/a	64.624000	n/a	93.402000	n/a	
12	0.010000	0.245330	n/a	66.532000	n/a	93.964000	n/a	
13	0.010000	0.238567	n/a	67.694000	n/a	93.926000	n/a	
14	0.010000	0.226775	n/a	69.238000	n/a	94.534000	n/a	
15	0.010000	0.218148	n/a	70.314000	n/a	94.854000	n/a	
16	0.010000	0.210752	n/a	71.492000	n/a	95.124000	n/a	
17	0.010000	0.206111	n/a	72.210000	n/a	95.226000	n/a	
18	0.010000	0.196411	n/a	73.406000	n/a	95.806000	n/a	
19	0.010000	0.190125	n/a	74.106000	n/a	95.924000	n/a	
20	0.010000	0.183589	n/a	75.126000	n/a	96.000000	n/a	
21	0.010000	0.176878	n/a	76.188000	n/a	96.418000	n/a	
22	0.010000	0.175042	n/a	76.506000	n/a	96.236000	n/a	
23	0.010000	0.168605	n/a	77.370000	n/a	96.644000	n/a	
24	0.010000	0.161953	n/a	78.370000	n/a	96.570000	n/a	
25	0.010000	0.158781	n/a	78.944000	n/a	96.760000	n/a	
26	0.010000	0.153715	n/a	79.482000	n/a	96.838000	n/a	
27	0.010000	0.148905	n/a	80.142000	n/a	97.074000	n/a	
28	0.010000	0.145440	n/a	80.500000	n/a	97.138000	n/a	
29	0.010000	0.142137	n/a	80.920000	n/a	97.246000	n/a	
30	0.010000	0.138253	n/a	81.746000	n/a	97.252000	n/a	
31	0.010000	0.135734	n/a	81.710000	n/a	97.512000	n/a	
32	0.010000	0.134299	n/a	82.210000	n/a	97.322000	n/a	
33	0.010000	0.131375	n/a	82.584000	n/a	97.576000	n/a	
34	0.010000	0.127250	n/a	83.202000	n/a	97.706000	n/a	
35	0.010000	0.125794	n/a	83.442000	n/a	97.580000	n/a	
36	0.010000	0.122766	n/a	83.742000	n/a	97.712000	n/a	
37	0.010000	0.121406	n/a	83.956000	n/a	97.756000	n/a	
38	0.010000	0.118123	n/a	84.264000	n/a	97.932000	n/a	
39	0.010000	0.115740	n/a	84.630000	n/a	97.838000	n/a	
40	0.010000	0.114081	n/a	84.978000	n/a	97.818000	n/a	
41	0.010000	0.111958	n/a	85.298000	n/a	98.020000	n/a	
42	0.010000	0.109132	n/a	85.580000	n/a	98.046000	n/a	
43	0.010000	0.109503	n/a	85.570000	n/a	97.958000	n/a	
44	0.010000	0.106795	n/a	85.944000	n/a	98.052000	n/a	
45	0.010000	0.103345	n/a	86.236000	n/a	98.260000	n/a	
46	0.010000	0.102937	n/a	86.432000	n/a	98.218000	n/a	
47	0.010000	0.101438	n/a	86.538000	n/a	98.182000	n/a	
48	0.010000	0.101124	n/a	86.828000	n/a	98.218000	n/a	
49	0.010000	0.099415	n/a	86.984000	n/a	98.230000	n/a	
50	0.010000	0.096408	n/a	87.268000	n/a	98.362000	n/a	
51	0.010000	0.097430	n/a	87.110000	n/a	98.278000	n/a	
52	0.010000	0.095329	n/a	87.352000	n/a	98.344000	n/a	
53	0.010000	0.093052	n/a	87.648000	n/a	98.406000	n/a	
54	0.010000	0.092976	n/a	87.766000	n/a	98.374000	n/a	
55	0.010000	0.092312	n/a	87.858000	n/a	98.396000	n/a	
56	0.010000	0.091034	n/a	88.074000	n/a	98.408000	n/a	
57	0.010000	0.088662	n/a	88.244000	n/a	98.556000	n/a	
58	0.010000	0.088301	n/a	88.340000	n/a	98.482000	n/a	
59	0.010000	0.086629	n/a	88.458000	n/a	98.566000	n/a	
60	0.010000	0.085837	n/a	88.784000	n/a	98.568000	n/a	
61	0.010000	0.084193	n/a	88.864000	n/a	98.596000	n/a	
62	0.010000	0.083343	n/a	89.030000	n/a	98.588000	n/a	
63	0.010000	0.084341	n/a	88.992000	n/a	98.598000	n/a	
64	0.010000	0.082149	n/a	89.168000	n/a	98.592000	n/a	
65	0.010000	0.080884	n/a	89.278000	n/a	98.638000	n/a	
66	0.010000	0.080844	n/a	89.432000	n/a	98.632000	n/a	
67	0.010000	0.081357	n/a	89.324000	n/a	98.596000	n/a	
68	0.010000	0.079716	n/a	89.510000	n/a	98.562000	n/a	
69	0.010000	0.079148	n/a	89.668000	n/a	98.658000	n/a	
70	0.010000	0.076867	n/a	89.844000	n/a	98.662000	n/a	
71	0.010000	0.078102	n/a	89.790000	n/a	98.652000	n/a	
72	0.010000	0.077060	n/a	89.880000	n/a	98.696000	n/a	
73	0.010000	0.075858	n/a	89.946000	n/a	98.662000	n/a	
74	0.010000	0.074835	n/a	90.196000	n/a	98.790000	n/a	
75	0.010000	0.074172	n/a	90.298000	n/a	98.740000	n/a	
76	0.010000	0.074956	n/a	90.144000	n/a	98.692000	n/a	
77	0.010000	0.073155	n/a	90.442000	n/a	98.750000	n/a	
78	0.010000	0.072988	n/a	90.372000	n/a	98.834000	n/a	
79	0.010000	0.072567	n/a	90.534000	n/a	98.776000	n/a	
80	0.010000	0.073243	n/a	90.316000	n/a	98.726000	n/a	
81	0.010000	0.072169	n/a	90.558000	n/a	98.802000	n/a	
82	0.010000	0.071297	n/a	90.754000	n/a	98.756000	n/a	
83	0.010000	0.069803	n/a	90.816000	n/a	98.860000	n/a	
84	0.010000	0.070367	n/a	90.710000	n/a	98.856000	n/a	
85	0.010000	0.070334	n/a	90.828000	n/a	98.856000	n/a	
86	0.010000	0.069167	n/a	90.906000	n/a	98.894000	n/a	
87	0.010000	0.068324	n/a	91.010000	n/a	98.870000	n/a	
88	0.010000	0.066860	n/a	91.254000	n/a	98.928000	n/a	
89	0.010000	0.067408	n/a	91.166000	n/a	98.846000	n/a	
90	0.010000	0.068149	n/a	91.116000	n/a	98.830000	n/a	
91	0.010000	0.067177	n/a	91.118000	n/a	98.858000	n/a	
92	0.010000	0.066400	n/a	91.210000	n/a	98.918000	n/a	
93	0.010000	0.066977	n/a	91.210000	n/a	98.804000	n/a	
94	0.010000	0.065881	n/a	91.348000	n/a	98.932000	n/a	
95	0.010000	0.065617	n/a	91.442000	n/a	98.872000	n/a	
96	0.010000	0.065048	n/a	91.530000	n/a	98.940000	n/a	
97	0.010000	0.066294	n/a	91.372000	n/a	98.942000	n/a	
98	0.010000	0.061810	n/a	91.902000	n/a	99.036000	n/a	
99	0.010000	0.062567	n/a	91.828000	n/a	99.040000	n/a	
100	0.010000	0.064173	n/a	91.584000	n/a	98.982000	n/a	
101	0.010000	0.062528	n/a	91.868000	n/a	98.994000	n/a	
102	0.010000	0.065475	n/a	91.392000	n/a	98.866000	n/a	
103	0.010000	0.062009	n/a	91.972000	n/a	98.942000	n/a	
104	0.010000	0.063419	n/a	91.748000	n/a	98.906000	n/a	
105	0.010000	0.061531	n/a	91.924000	n/a	98.922000	n/a	
106	0.010000	0.062137	n/a	91.912000	n/a	98.956000	n/a	
107	0.010000	0.062073	n/a	91.894000	n/a	98.960000	n/a	
108	0.010000	0.059945	n/a	92.034000	n/a	99.008000	n/a	
109	0.010000	0.061498	n/a	91.938000	n/a	98.930000	n/a	
110	0.010000	0.061183	n/a	92.068000	n/a	98.970000	n/a	
111	0.010000	0.059258	n/a	92.220000	n/a	99.022000	n/a	
112	0.010000	0.059010	n/a	92.202000	n/a	99.060000	n/a	
113	0.010000	0.058169	n/a	92.432000	n/a	99.042000	n/a	
114	0.010000	0.059804	n/a	92.082000	n/a	99.030000	n/a	
115	0.010000	0.059119	n/a	92.214000	n/a	99.004000	n/a	
116	0.010000	0.058196	n/a	92.484000	n/a	99.034000	n/a	
117	0.010000	0.057882	n/a	92.510000	n/a	99.050000	n/a	
118	0.010000	0.059263	n/a	92.314000	n/a	98.992000	n/a	
119	0.010000	0.058534	n/a	92.334000	n/a	99.000000	n/a	
120	0.010000	0.058859	n/a	92.266000	n/a	99.022000	n/a	
121	0.010000	0.057723	n/a	92.376000	n/a	99.078000	n/a	
122	0.010000	0.056668	n/a	92.514000	n/a	99.146000	n/a	
123	0.010000	0.056731	n/a	92.616000	n/a	98.978000	n/a	
124	0.010000	0.056645	n/a	92.606000	n/a	99.136000	n/a	
125	0.010000	0.058578	n/a	92.384000	n/a	98.970000	n/a	
126	0.010000	0.057589	n/a	92.418000	n/a	99.174000	n/a	
127	0.010000	0.057298	n/a	92.570000	n/a	99.032000	n/a	
128	0.010000	0.056464	n/a	92.504000	n/a	99.070000	n/a	
129	0.010000	0.055388	n/a	92.832000	n/a	99.102000	n/a	
130	0.010000	0.055163	n/a	92.776000	n/a	99.134000	n/a	
131	0.010000	0.057177	n/a	92.594000	n/a	99.036000	n/a	
132	0.010000	0.054510	n/a	92.934000	n/a	99.136000	n/a	
133	0.010000	0.055550	n/a	92.672000	n/a	99.176000	n/a	
134	0.010000	0.055880	n/a	92.742000	n/a	99.144000	n/a	
135	0.010000	0.053139	n/a	93.106000	n/a	99.186000	n/a	
136	0.010000	0.053542	n/a	92.900000	n/a	99.198000	n/a	
137	0.010000	0.055115	n/a	92.820000	n/a	99.108000	n/a	
138	0.010000	0.055010	n/a	92.742000	n/a	99.128000	n/a	
139	0.010000	0.053461	n/a	93.046000	n/a	99.152000	n/a	
140	0.010000	0.053371	0.091654	93.000000	88.250000	99.104000	98.270000	
141	0.010000	0.053172	0.093697	92.972000	88.110000	99.220000	97.850000	
142	0.010000	0.054052	0.099001	92.878000	87.500000	99.144000	97.180000	
143	0.010000	0.052839	0.109647	92.966000	85.880000	99.208000	97.890000	
144	0.010000	0.053040	0.101622	93.062000	86.400000	99.176000	98.780000	
145	0.010000	0.051800	0.103397	93.252000	86.250000	99.126000	98.640000	
146	0.010000	0.051889	0.115084	93.110000	84.860000	99.238000	97.020000	
147	0.010000	0.051533	0.101204	93.268000	87.000000	99.224000	98.160000	
148	0.010000	0.052310	0.092868	93.178000	87.340000	99.186000	98.150000	
149	0.010000	0.051613	0.096954	93.246000	87.260000	99.192000	97.850000	
150	0.001000	0.032081	0.067693	95.672000	91.030000	99.698000	99.020000	
151	0.001000	0.024957	0.067219	96.704000	90.980000	99.800000	99.060000	
152	0.001000	0.022853	0.066029	96.980000	91.230000	99.786000	98.880000	
153	0.001000	0.021959	0.066115	97.138000	91.210000	99.764000	98.420000	
154	0.001000	0.020717	0.065173	97.364000	91.310000	99.776000	98.860000	
155	0.001000	0.019003	0.065301	97.624000	91.160000	99.804000	99.060000	
156	0.001000	0.018886	0.064549	97.610000	91.610000	99.788000	98.740000	
157	0.001000	0.017855	0.066633	97.750000	91.450000	99.788000	98.550000	
158	0.001000	0.017583	0.064822	97.780000	91.500000	99.834000	98.670000	
159	0.001000	0.016919	0.065125	97.848000	91.620000	99.834000	98.640000	
160	0.001000	0.016762	0.064869	97.856000	91.240000	99.808000	98.780000	
161	0.001000	0.016462	0.065080	97.876000	91.510000	99.852000	98.820000	
162	0.001000	0.016276	0.065352	97.866000	91.320000	99.846000	98.700000	
163	0.001000	0.015512	0.066050	98.052000	91.330000	99.844000	98.610000	
164	0.001000	0.015135	0.066355	98.144000	91.350000	99.818000	98.770000	
165	0.001000	0.014360	0.065419	98.214000	91.410000	99.872000	98.560000	
166	0.001000	0.014678	0.066123	98.118000	91.430000	99.838000	98.500000	
167	0.001000	0.013991	0.066832	98.254000	91.230000	99.852000	98.310000	
168	0.001000	0.014260	0.064701	98.222000	91.450000	99.842000	98.630000	
169	0.001000	0.013704	0.066439	98.250000	91.470000	99.868000	98.560000	
170	0.001000	0.013334	0.065011	98.348000	91.550000	99.830000	98.210000	
171	0.001000	0.013142	0.066948	98.292000	91.310000	99.890000	98.650000	
172	0.001000	0.012991	0.066110	98.416000	91.500000	99.868000	98.340000	
173	0.001000	0.012904	0.068260	98.390000	91.570000	99.862000	97.940000	
174	0.001000	0.012405	0.068593	98.432000	91.180000	99.884000	98.280000	
175	0.001000	0.012387	0.067594	98.482000	91.300000	99.842000	98.330000	
176	0.001000	0.012215	0.067531	98.496000	91.430000	99.868000	98.250000	
177	0.001000	0.012376	0.068173	98.456000	91.350000	99.862000	98.420000	
178	0.001000	0.011676	0.067513	98.606000	91.400000	99.870000	98.420000	
179	0.001000	0.011676	0.067938	98.572000	91.350000	99.880000	98.280000	
180	0.001000	0.011853	0.066989	98.520000	91.430000	99.900000	98.280000	
181	0.001000	0.010827	0.069051	98.726000	90.990000	99.848000	97.940000	
182	0.001000	0.011539	0.069136	98.622000	91.070000	99.880000	97.910000	
183	0.001000	0.011106	0.068148	98.624000	91.360000	99.882000	98.340000	
184	0.001000	0.010631	0.069348	98.698000	91.370000	99.896000	98.150000	
185	0.001000	0.010598	0.068125	98.724000	91.360000	99.900000	98.250000	
186	0.001000	0.010979	0.069410	98.650000	91.390000	99.916000	98.260000	
187	0.001000	0.010425	0.069186	98.712000	91.320000	99.888000	97.890000	
188	0.001000	0.010112	0.068819	98.796000	91.520000	99.878000	98.470000	
189	0.001000	0.009966	0.068130	98.824000	91.450000	99.876000	98.250000	
190	0.001000	0.010238	0.069015	98.726000	91.340000	99.892000	98.260000	
191	0.001000	0.009988	0.068471	98.826000	91.370000	99.904000	98.070000	
192	0.001000	0.010281	0.068750	98.768000	91.300000	99.884000	98.100000	
193	0.001000	0.009532	0.068789	98.800000	91.360000	99.900000	98.160000	
194	0.001000	0.009621	0.069011	98.868000	91.450000	99.896000	97.860000	
195	0.001000	0.009664	0.069481	98.808000	91.360000	99.904000	98.010000	
196	0.001000	0.009316	0.070569	98.906000	91.110000	99.904000	98.380000	
197	0.001000	0.009282	0.069594	98.876000	91.370000	99.898000	97.910000	
198	0.001000	0.009206	0.069318	98.926000	91.220000	99.922000	98.340000	
199	0.001000	0.009294	0.070232	98.848000	91.300000	99.920000	98.370000	
200	0.001000	0.008971	0.069430	98.934000	91.220000	99.910000	98.220000	
201	0.001000	0.008955	0.070319	98.972000	91.410000	99.906000	97.930000	
202	0.001000	0.008913	0.070417	98.874000	91.460000	99.902000	98.200000	
203	0.001000	0.008552	0.069368	99.000000	91.440000	99.914000	98.020000	
204	0.001000	0.008504	0.069119	98.964000	91.430000	99.914000	98.110000	
205	0.001000	0.008807	0.069990	98.962000	91.380000	99.912000	98.070000	
206	0.001000	0.008276	0.070321	99.022000	91.260000	99.912000	97.950000	
207	0.001000	0.008245	0.070873	99.022000	91.290000	99.926000	98.200000	
208	0.001000	0.007858	0.070491	99.056000	91.450000	99.924000	97.680000	
209	0.001000	0.008588	0.069817	98.944000	91.340000	99.908000	97.890000	
210	0.001000	0.007986	0.069907	99.072000	91.560000	99.914000	98.140000	
211	0.001000	0.008279	0.070237	99.032000	91.290000	99.916000	97.870000	
212	0.001000	0.008334	0.070588	99.036000	91.150000	99.906000	98.120000	
213	0.001000	0.008018	0.070714	99.078000	91.340000	99.914000	98.010000	
214	0.001000	0.008335	0.070843	99.030000	91.250000	99.920000	98.260000	
215	0.001000	0.007795	0.071810	99.066000	91.100000	99.922000	97.630000	
216	0.001000	0.008178	0.072130	99.022000	91.240000	99.918000	97.940000	
217	0.001000	0.007694	0.070641	99.132000	91.250000	99.922000	97.800000	
218	0.001000	0.007338	0.070714	99.156000	91.430000	99.928000	98.220000	
219	0.001000	0.007614	0.070278	99.112000	91.350000	99.924000	98.020000	
220	0.001000	0.007803	0.070681	99.082000	91.460000	99.932000	98.050000	
221	0.001000	0.007081	0.071614	99.168000	91.370000	99.940000	97.840000	
222	0.001000	0.007810	0.071174	99.010000	91.270000	99.924000	97.640000	
223	0.001000	0.007748	0.072085	99.050000	91.160000	99.942000	97.660000	
224	0.001000	0.007281	0.071673	99.176000	91.260000	99.932000	97.840000	
225	0.000100	0.006899	0.070653	99.180000	91.430000	99.950000	97.830000	
226	0.000100	0.006178	0.070537	99.306000	91.300000	99.956000	97.810000	
227	0.000100	0.006042	0.070410	99.326000	91.430000	99.950000	97.850000	
228	0.000100	0.006154	0.069949	99.324000	91.410000	99.952000	97.880000	
229	0.000100	0.006158	0.069612	99.308000	91.530000	99.962000	97.850000	
230	0.000100	0.006576	0.069984	99.258000	91.560000	99.936000	97.760000	
231	0.000100	0.006140	0.070010	99.298000	91.500000	99.924000	97.800000	
232	0.000100	0.005879	0.069830	99.346000	91.560000	99.936000	97.750000	
233	0.000100	0.005937	0.069836	99.344000	91.390000	99.938000	97.680000	
234	0.000100	0.005693	0.070069	99.376000	91.520000	99.948000	97.720000	
235	0.000100	0.005794	0.069782	99.340000	91.540000	99.948000	97.840000	
236	0.000100	0.005818	0.069720	99.348000	91.510000	99.944000	97.820000	
237	0.000100	0.005641	0.069858	99.390000	91.520000	99.946000	97.590000	
238	0.000100	0.005827	0.070040	99.344000	91.410000	99.950000	97.670000	
239	0.000100	0.005518	0.070239	99.402000	91.440000	99.942000	97.750000	
240	0.000100	0.005567	0.070896	99.378000	91.320000	99.942000	97.720000	
241	0.000100	0.005509	0.070636	99.414000	91.420000	99.952000	97.760000	
242	0.000100	0.005758	0.070563	99.368000	91.310000	99.940000	97.540000	
243	0.000100	0.005396	0.070526	99.404000	91.420000	99.952000	97.580000	
244	0.000100	0.005483	0.070344	99.398000	91.520000	99.950000	97.660000	
245	0.000100	0.005657	0.070446	99.398000	91.480000	99.948000	97.670000	
246	0.000100	0.005906	0.070127	99.318000	91.510000	99.942000	97.710000	
247	0.000100	0.005805	0.070949	99.372000	91.460000	99.950000	97.740000	
248	0.000100	0.005381	0.070241	99.432000	91.430000	99.938000	97.580000	
249	0.000100	0.005295	0.069999	99.458000	91.530000	99.956000	97.580000	
250	0.000100	0.005275	0.070644	99.416000	91.380000	99.938000	97.690000	
251	0.000100	0.005470	0.070465	99.392000	91.370000	99.950000	97.760000	
252	0.000100	0.005231	0.070563	99.440000	91.440000	99.952000	97.630000	
253	0.000100	0.005434	0.070422	99.406000	91.480000	99.946000	97.750000	
254	0.000100	0.005396	0.070220	99.426000	91.420000	99.948000	97.620000	
255	0.000100	0.005465	0.070417	99.376000	91.330000	99.942000	97.710000	
256	0.000100	0.005288	0.070513	99.458000	91.420000	99.954000	97.730000	
257	0.000100	0.005057	0.070536	99.466000	91.510000	99.932000	97.680000	
258	0.000100	0.005763	0.070533	99.354000	91.430000	99.954000	97.670000	
259	0.000100	0.005178	0.070960	99.478000	91.340000	99.954000	97.640000	
260	0.000100	0.005237	0.070611	99.474000	91.490000	99.964000	97.670000	
261	0.000100	0.005308	0.070501	99.434000	91.400000	99.936000	97.680000	
262	0.000100	0.005373	0.071108	99.414000	91.380000	99.952000	97.640000	
263	0.000100	0.005231	0.070812	99.442000	91.400000	99.940000	97.680000	
264	0.000100	0.005124	0.070867	99.438000	91.510000	99.940000	97.730000	
265	0.000100	0.005360	0.070745	99.420000	91.340000	99.948000	97.760000	
266	0.000100	0.005496	0.070633	99.404000	91.510000	99.948000	97.720000	
267	0.000100	0.005309	0.070332	99.420000	91.410000	99.948000	97.760000	
268	0.000100	0.005579	0.070770	99.388000	91.390000	99.940000	97.740000	
269	0.000100	0.005355	0.070512	99.420000	91.470000	99.942000	97.570000	
270	0.000100	0.005164	0.070397	99.432000	91.480000	99.950000	97.590000	
271	0.000100	0.005413	0.070426	99.388000	91.480000	99.950000	97.660000	
272	0.000100	0.005287	0.070440	99.428000	91.590000	99.950000	97.800000	
273	0.000100	0.004982	0.070251	99.454000	91.520000	99.958000	97.630000	
274	0.000100	0.005170	0.070646	99.436000	91.420000	99.952000	97.530000	
275	0.000100	0.004911	0.071333	99.486000	91.360000	99.948000	97.520000	
276	0.000100	0.005241	0.070924	99.426000	91.430000	99.932000	97.640000	
277	0.000100	0.005070	0.071078	99.470000	91.360000	99.962000	97.450000	
278	0.000100	0.005321	0.070822	99.390000	91.500000	99.948000	97.720000	
279	0.000100	0.005298	0.070851	99.430000	91.430000	99.932000	97.680000	
280	0.000100	0.005163	0.071034	99.420000	91.360000	99.952000	97.640000	
281	0.000100	0.005168	0.070983	99.406000	91.430000	99.944000	97.810000	
282	0.000100	0.005097	0.071252	99.446000	91.420000	99.960000	97.660000	
283	0.000100	0.005003	0.070633	99.486000	91.430000	99.948000	97.750000	
284	0.000100	0.005100	0.071033	99.450000	91.450000	99.954000	97.620000	
285	0.000100	0.005102	0.070519	99.442000	91.560000	99.944000	97.770000	
286	0.000100	0.005084	0.070475	99.428000	91.490000	99.944000	97.670000	
287	0.000100	0.004994	0.071037	99.444000	91.450000	99.950000	97.550000	
288	0.000100	0.005075	0.071016	99.472000	91.510000	99.958000	97.660000	
289	0.000100	0.004983	0.071097	99.462000	91.480000	99.954000	97.760000	
290	0.000100	0.005075	0.070776	99.420000	91.470000	99.956000	97.670000	
291	0.000100	0.005096	0.070832	99.460000	91.460000	99.950000	97.650000	
292	0.000100	0.005179	0.070622	99.438000	91.400000	99.962000	97.650000	
293	0.000100	0.005075	0.071116	99.472000	91.410000	99.952000	97.680000	
294	0.000100	0.004990	0.070949	99.476000	91.430000	99.960000	97.600000	
295	0.000100	0.005383	0.070995	99.412000	91.340000	99.946000	97.520000	
296	0.000100	0.005058	0.070842	99.460000	91.390000	99.944000	97.610000	
297	0.000100	0.004690	0.070973	99.506000	91.340000	99.952000	97.560000	
298	0.000100	0.005109	0.071019	99.462000	91.340000	99.936000	97.540000	
299	0.000100	0.005171	0.071245	99.458000	91.440000	99.948000	97.520000	
