Epoch	Learning Rate	Train Loss	Test Loss	Train Acc.	Test Acc.	Train Acc5.	Test Acc5.	
0	0.100000	2.095078	n/a	28.338000	n/a	80.998000	n/a	
1	0.100000	1.452548	n/a	47.002000	n/a	92.170000	n/a	
2	0.100000	1.204429	n/a	56.904000	n/a	95.172000	n/a	
3	0.100000	0.986088	n/a	64.982000	n/a	96.906000	n/a	
4	0.100000	0.834816	n/a	70.794000	n/a	97.756000	n/a	
5	0.100000	0.739375	n/a	74.228000	n/a	98.310000	n/a	
6	0.100000	0.683355	n/a	76.242000	n/a	98.544000	n/a	
7	0.100000	0.642074	n/a	77.958000	n/a	98.696000	n/a	
8	0.100000	0.608430	n/a	78.978000	n/a	98.792000	n/a	
9	0.100000	0.589210	n/a	79.726000	n/a	98.854000	n/a	
10	0.100000	0.570224	n/a	80.220000	n/a	98.948000	n/a	
11	0.100000	0.561004	n/a	80.686000	n/a	98.996000	n/a	
12	0.100000	0.541201	n/a	81.268000	n/a	99.028000	n/a	
13	0.100000	0.535670	n/a	81.528000	n/a	99.080000	n/a	
14	0.100000	0.521684	n/a	82.060000	n/a	99.098000	n/a	
15	0.100000	0.517997	n/a	82.180000	n/a	99.144000	n/a	
16	0.100000	0.509250	n/a	82.336000	n/a	99.178000	n/a	
17	0.100000	0.507965	n/a	82.466000	n/a	99.206000	n/a	
18	0.100000	0.492657	n/a	83.062000	n/a	99.176000	n/a	
19	0.100000	0.489176	n/a	83.172000	n/a	99.190000	n/a	
20	0.100000	0.485345	n/a	83.386000	n/a	99.208000	n/a	
21	0.100000	0.480456	n/a	83.616000	n/a	99.232000	n/a	
22	0.100000	0.475598	n/a	83.518000	n/a	99.208000	n/a	
23	0.100000	0.478531	n/a	83.626000	n/a	99.284000	n/a	
24	0.100000	0.472881	n/a	83.774000	n/a	99.290000	n/a	
25	0.100000	0.462450	n/a	84.240000	n/a	99.302000	n/a	
26	0.100000	0.462973	n/a	84.010000	n/a	99.316000	n/a	
27	0.100000	0.458772	n/a	84.314000	n/a	99.312000	n/a	
28	0.100000	0.460986	n/a	84.262000	n/a	99.304000	n/a	
29	0.100000	0.457818	n/a	84.272000	n/a	99.292000	n/a	
30	0.100000	0.453483	n/a	84.418000	n/a	99.314000	n/a	
31	0.100000	0.452410	n/a	84.402000	n/a	99.292000	n/a	
32	0.100000	0.452738	n/a	84.442000	n/a	99.340000	n/a	
33	0.100000	0.448559	n/a	84.538000	n/a	99.418000	n/a	
34	0.100000	0.445182	n/a	84.800000	n/a	99.352000	n/a	
35	0.100000	0.443922	n/a	84.812000	n/a	99.362000	n/a	
36	0.100000	0.445703	n/a	84.432000	n/a	99.382000	n/a	
37	0.100000	0.448923	n/a	84.682000	n/a	99.356000	n/a	
38	0.100000	0.436779	n/a	84.952000	n/a	99.386000	n/a	
39	0.100000	0.444125	n/a	84.820000	n/a	99.360000	n/a	
40	0.100000	0.434733	n/a	85.152000	n/a	99.368000	n/a	
41	0.100000	0.440302	n/a	84.866000	n/a	99.390000	n/a	
42	0.100000	0.438031	n/a	85.010000	n/a	99.312000	n/a	
43	0.100000	0.436744	n/a	85.050000	n/a	99.336000	n/a	
44	0.100000	0.435023	n/a	85.096000	n/a	99.328000	n/a	
45	0.100000	0.439147	n/a	84.908000	n/a	99.320000	n/a	
46	0.100000	0.429694	n/a	85.286000	n/a	99.408000	n/a	
47	0.100000	0.432768	n/a	85.324000	n/a	99.336000	n/a	
48	0.100000	0.433341	n/a	85.128000	n/a	99.416000	n/a	
49	0.100000	0.428350	n/a	85.388000	n/a	99.354000	n/a	
50	0.100000	0.427106	n/a	85.284000	n/a	99.392000	n/a	
51	0.100000	0.433623	n/a	85.118000	n/a	99.392000	n/a	
52	0.100000	0.426146	n/a	85.380000	n/a	99.414000	n/a	
53	0.100000	0.426391	n/a	85.226000	n/a	99.428000	n/a	
54	0.100000	0.425521	n/a	85.192000	n/a	99.388000	n/a	
55	0.100000	0.426944	n/a	85.388000	n/a	99.386000	n/a	
56	0.100000	0.425676	n/a	85.392000	n/a	99.436000	n/a	
57	0.100000	0.425442	n/a	85.462000	n/a	99.400000	n/a	
58	0.100000	0.421781	n/a	85.502000	n/a	99.376000	n/a	
59	0.100000	0.420954	n/a	85.518000	n/a	99.434000	n/a	
60	0.100000	0.425022	n/a	85.290000	n/a	99.362000	n/a	
61	0.100000	0.423651	n/a	85.648000	n/a	99.374000	n/a	
62	0.100000	0.417581	n/a	85.612000	n/a	99.452000	n/a	
63	0.100000	0.423411	n/a	85.522000	n/a	99.404000	n/a	
64	0.100000	0.422991	n/a	85.404000	n/a	99.434000	n/a	
65	0.100000	0.422527	n/a	85.424000	n/a	99.458000	n/a	
66	0.100000	0.419891	n/a	85.594000	n/a	99.404000	n/a	
67	0.100000	0.425530	n/a	85.426000	n/a	99.438000	n/a	
68	0.100000	0.417550	n/a	85.582000	n/a	99.398000	n/a	
69	0.100000	0.420601	n/a	85.696000	n/a	99.462000	n/a	
70	0.100000	0.414464	n/a	85.806000	n/a	99.440000	n/a	
71	0.100000	0.416208	n/a	85.756000	n/a	99.390000	n/a	
72	0.100000	0.417854	n/a	85.602000	n/a	99.366000	n/a	
73	0.100000	0.416009	n/a	85.494000	n/a	99.506000	n/a	
74	0.100000	0.417436	n/a	85.618000	n/a	99.468000	n/a	
75	0.100000	0.417878	n/a	85.674000	n/a	99.418000	n/a	
76	0.100000	0.413633	n/a	85.762000	n/a	99.426000	n/a	
77	0.100000	0.415389	n/a	85.758000	n/a	99.462000	n/a	
78	0.100000	0.416916	n/a	85.726000	n/a	99.452000	n/a	
79	0.100000	0.410061	n/a	85.898000	n/a	99.470000	n/a	
80	0.100000	0.410305	n/a	85.920000	n/a	99.462000	n/a	
81	0.100000	0.416062	n/a	85.790000	n/a	99.438000	n/a	
82	0.100000	0.417954	n/a	85.758000	n/a	99.436000	n/a	
83	0.100000	0.415665	n/a	85.712000	n/a	99.500000	n/a	
84	0.100000	0.413583	n/a	85.900000	n/a	99.452000	n/a	
85	0.100000	0.407623	n/a	85.862000	n/a	99.450000	n/a	
86	0.100000	0.408821	n/a	86.030000	n/a	99.450000	n/a	
87	0.100000	0.413042	n/a	85.920000	n/a	99.460000	n/a	
88	0.100000	0.413052	n/a	85.872000	n/a	99.414000	n/a	
89	0.100000	0.413878	n/a	85.792000	n/a	99.422000	n/a	
90	0.100000	0.410129	n/a	85.882000	n/a	99.432000	n/a	
91	0.100000	0.408797	n/a	85.922000	n/a	99.424000	n/a	
92	0.100000	0.408762	n/a	85.888000	n/a	99.522000	n/a	
93	0.100000	0.411919	n/a	85.934000	n/a	99.458000	n/a	
94	0.100000	0.411289	n/a	86.040000	n/a	99.442000	n/a	
95	0.100000	0.401945	n/a	86.214000	n/a	99.472000	n/a	
96	0.100000	0.408027	n/a	86.064000	n/a	99.422000	n/a	
97	0.100000	0.414718	n/a	85.736000	n/a	99.418000	n/a	
98	0.100000	0.405881	n/a	86.004000	n/a	99.450000	n/a	
99	0.100000	0.411119	n/a	86.020000	n/a	99.468000	n/a	
100	0.100000	0.408431	n/a	85.984000	n/a	99.460000	n/a	
101	0.100000	0.415265	n/a	85.828000	n/a	99.458000	n/a	
102	0.100000	0.405393	n/a	86.232000	n/a	99.452000	n/a	
103	0.100000	0.410146	n/a	85.966000	n/a	99.438000	n/a	
104	0.100000	0.405910	n/a	86.218000	n/a	99.450000	n/a	
105	0.100000	0.413525	n/a	85.834000	n/a	99.438000	n/a	
106	0.100000	0.411409	n/a	85.870000	n/a	99.456000	n/a	
107	0.100000	0.405022	n/a	86.084000	n/a	99.480000	n/a	
108	0.100000	0.408904	n/a	85.898000	n/a	99.410000	n/a	
109	0.100000	0.404499	n/a	86.174000	n/a	99.486000	n/a	
110	0.100000	0.408636	n/a	85.924000	n/a	99.444000	n/a	
111	0.100000	0.406350	n/a	86.090000	n/a	99.458000	n/a	
112	0.100000	0.403219	n/a	86.358000	n/a	99.434000	n/a	
113	0.100000	0.402385	n/a	86.416000	n/a	99.434000	n/a	
114	0.100000	0.404021	n/a	86.152000	n/a	99.478000	n/a	
115	0.100000	0.405671	n/a	86.094000	n/a	99.458000	n/a	
116	0.100000	0.405812	n/a	86.230000	n/a	99.442000	n/a	
117	0.100000	0.400180	n/a	86.338000	n/a	99.452000	n/a	
118	0.100000	0.408821	n/a	85.964000	n/a	99.414000	n/a	
119	0.100000	0.404191	n/a	86.204000	n/a	99.472000	n/a	
120	0.100000	0.403966	n/a	86.238000	n/a	99.422000	n/a	
121	0.100000	0.407330	n/a	86.092000	n/a	99.488000	n/a	
122	0.100000	0.403287	n/a	86.340000	n/a	99.432000	n/a	
123	0.100000	0.407815	n/a	85.894000	n/a	99.464000	n/a	
124	0.100000	0.405848	n/a	86.194000	n/a	99.482000	n/a	
125	0.100000	0.412111	n/a	85.752000	n/a	99.462000	n/a	
126	0.100000	0.402358	n/a	86.060000	n/a	99.486000	n/a	
127	0.100000	0.408644	n/a	86.006000	n/a	99.462000	n/a	
128	0.100000	0.402993	n/a	86.178000	n/a	99.452000	n/a	
129	0.100000	0.403610	n/a	86.276000	n/a	99.464000	n/a	
130	0.100000	0.408383	n/a	86.076000	n/a	99.412000	n/a	
131	0.100000	0.405403	n/a	86.130000	n/a	99.480000	n/a	
132	0.100000	0.405651	n/a	85.972000	n/a	99.462000	n/a	
133	0.100000	0.405994	n/a	85.990000	n/a	99.478000	n/a	
134	0.100000	0.403756	n/a	86.156000	n/a	99.414000	n/a	
135	0.100000	0.407361	n/a	86.022000	n/a	99.426000	n/a	
136	0.100000	0.406391	n/a	85.970000	n/a	99.490000	n/a	
137	0.100000	0.404307	n/a	86.114000	n/a	99.460000	n/a	
138	0.100000	0.400184	n/a	86.278000	n/a	99.424000	n/a	
139	0.100000	0.407500	n/a	85.962000	n/a	99.436000	n/a	
140	0.100000	0.407133	0.601127	85.964000	80.240000	99.414000	99.120000	
141	0.100000	0.405795	0.604846	86.068000	80.440000	99.446000	99.140000	
142	0.100000	0.404186	0.569502	86.032000	80.720000	99.434000	99.150000	
143	0.100000	0.401154	0.486428	86.318000	83.460000	99.398000	99.110000	
144	0.100000	0.406704	0.523177	86.006000	82.410000	99.382000	99.230000	
145	0.100000	0.404236	0.499173	86.134000	83.060000	99.438000	99.230000	
146	0.100000	0.401982	0.551343	86.292000	81.930000	99.500000	98.740000	
147	0.100000	0.403749	0.755074	86.106000	76.230000	99.508000	98.190000	
148	0.100000	0.406005	0.617388	86.048000	80.160000	99.508000	99.070000	
149	0.100000	0.406679	0.589348	86.074000	80.970000	99.498000	98.950000	
150	0.010000	0.259712	0.281751	91.298000	90.560000	99.752000	99.680000	
151	0.010000	0.215369	0.276384	92.794000	90.660000	99.836000	99.730000	
152	0.010000	0.196009	0.268471	93.284000	91.040000	99.860000	99.770000	
153	0.010000	0.183383	0.254212	93.822000	91.530000	99.872000	99.810000	
154	0.010000	0.175069	0.263513	94.058000	91.410000	99.882000	99.790000	
155	0.010000	0.165876	0.268864	94.372000	91.280000	99.914000	99.800000	
156	0.010000	0.158137	0.259029	94.664000	91.360000	99.896000	99.800000	
157	0.010000	0.153962	0.262764	94.766000	91.350000	99.896000	99.820000	
158	0.010000	0.144076	0.262092	95.026000	91.700000	99.902000	99.780000	
159	0.010000	0.142910	0.255186	95.076000	91.830000	99.936000	99.750000	
160	0.010000	0.140042	0.263476	95.220000	91.430000	99.928000	99.730000	
161	0.010000	0.137765	0.272757	95.280000	91.300000	99.936000	99.770000	
162	0.010000	0.132217	0.273099	95.460000	91.340000	99.926000	99.770000	
163	0.010000	0.129691	0.267652	95.568000	91.420000	99.950000	99.730000	
164	0.010000	0.128112	0.271909	95.642000	91.440000	99.944000	99.740000	
165	0.010000	0.127329	0.277877	95.678000	91.320000	99.932000	99.790000	
166	0.010000	0.121592	0.289134	95.894000	91.080000	99.962000	99.730000	
167	0.010000	0.122975	0.297655	95.798000	91.280000	99.950000	99.660000	
168	0.010000	0.123826	0.284100	95.716000	91.480000	99.952000	99.730000	
169	0.010000	0.124172	0.293673	95.716000	91.090000	99.958000	99.750000	
170	0.010000	0.121664	0.295288	95.760000	91.120000	99.950000	99.690000	
171	0.010000	0.119304	0.298216	95.886000	90.770000	99.960000	99.690000	
172	0.010000	0.120169	0.295850	95.800000	90.980000	99.956000	99.660000	
173	0.010000	0.118736	0.312221	95.980000	90.760000	99.962000	99.710000	
174	0.010000	0.115895	0.309243	95.998000	90.560000	99.966000	99.710000	
175	0.010000	0.121999	0.291311	95.860000	91.000000	99.974000	99.780000	
176	0.010000	0.122430	0.302439	95.798000	90.720000	99.954000	99.770000	
177	0.010000	0.120688	0.283178	95.850000	91.230000	99.960000	99.720000	
178	0.010000	0.119191	0.299561	95.910000	90.650000	99.964000	99.760000	
179	0.010000	0.118876	0.329817	95.866000	90.070000	99.966000	99.710000	
180	0.010000	0.120524	0.320328	95.914000	90.090000	99.968000	99.670000	
181	0.010000	0.119203	0.324402	95.834000	90.040000	99.960000	99.650000	
182	0.010000	0.122046	0.393949	95.778000	88.220000	99.948000	99.770000	
183	0.010000	0.115428	0.307025	96.036000	90.890000	99.952000	99.680000	
184	0.010000	0.125746	0.316697	95.648000	90.240000	99.956000	99.690000	
185	0.010000	0.124421	0.321247	95.634000	90.330000	99.956000	99.610000	
186	0.010000	0.123347	0.310593	95.818000	90.400000	99.958000	99.620000	
187	0.010000	0.123516	0.312144	95.664000	90.360000	99.974000	99.690000	
188	0.010000	0.121750	0.348980	95.768000	89.700000	99.972000	99.640000	
189	0.010000	0.121757	0.362493	95.836000	89.360000	99.972000	99.640000	
190	0.010000	0.121479	0.345198	95.908000	89.610000	99.966000	99.710000	
191	0.010000	0.128264	0.299409	95.622000	91.130000	99.952000	99.620000	
192	0.010000	0.126333	0.346288	95.672000	89.440000	99.964000	99.500000	
193	0.010000	0.121872	0.356397	95.858000	88.980000	99.980000	99.690000	
194	0.010000	0.123947	0.373602	95.696000	89.530000	99.974000	99.630000	
195	0.010000	0.116755	0.327696	95.986000	90.210000	99.968000	99.670000	
196	0.010000	0.126951	0.350145	95.608000	89.640000	99.962000	99.540000	
197	0.010000	0.123082	0.337576	95.726000	89.980000	99.976000	99.540000	
198	0.010000	0.122594	0.356323	95.702000	89.200000	99.962000	99.570000	
199	0.010000	0.123908	0.334187	95.746000	89.780000	99.970000	99.690000	
200	0.010000	0.120584	0.323393	95.882000	90.500000	99.968000	99.680000	
201	0.010000	0.121701	0.328438	95.710000	90.050000	99.962000	99.580000	
202	0.010000	0.124798	0.357245	95.706000	89.740000	99.974000	99.750000	
203	0.010000	0.120873	0.321883	95.866000	90.600000	99.970000	99.660000	
204	0.010000	0.125225	0.329426	95.720000	89.970000	99.978000	99.730000	
205	0.010000	0.120662	0.326924	95.864000	89.970000	99.976000	99.620000	
206	0.010000	0.123051	0.326173	95.762000	90.460000	99.960000	99.600000	
207	0.010000	0.117006	0.335379	96.070000	89.780000	99.956000	99.690000	
208	0.010000	0.122752	0.333576	95.740000	89.670000	99.970000	99.690000	
209	0.010000	0.122103	0.301939	95.832000	90.750000	99.966000	99.720000	
210	0.010000	0.117574	0.332242	96.022000	89.880000	99.954000	99.660000	
211	0.010000	0.123182	0.357693	95.722000	89.790000	99.964000	99.630000	
212	0.010000	0.118846	0.366769	95.942000	89.240000	99.962000	99.630000	
213	0.010000	0.119122	0.325246	95.906000	90.330000	99.974000	99.710000	
214	0.010000	0.122190	0.336271	95.732000	89.940000	99.970000	99.730000	
215	0.010000	0.120537	0.313376	95.868000	90.850000	99.978000	99.690000	
216	0.010000	0.121085	0.378239	95.834000	88.780000	99.968000	99.530000	
217	0.010000	0.117985	0.328166	95.960000	90.570000	99.972000	99.600000	
218	0.010000	0.120546	0.343441	95.884000	89.920000	99.964000	99.680000	
219	0.010000	0.119639	0.334003	95.816000	90.200000	99.974000	99.660000	
220	0.010000	0.119388	0.314223	95.932000	90.410000	99.974000	99.710000	
221	0.010000	0.114426	0.334934	96.010000	90.140000	99.970000	99.690000	
222	0.010000	0.118208	0.380044	95.934000	89.200000	99.978000	99.550000	
223	0.010000	0.118019	0.366362	95.872000	89.310000	99.976000	99.580000	
224	0.010000	0.119061	0.359852	95.888000	89.360000	99.966000	99.590000	
225	0.001000	0.074691	0.248665	97.686000	92.430000	99.994000	99.760000	
226	0.001000	0.057485	0.248156	98.322000	92.750000	99.994000	99.800000	
227	0.001000	0.051644	0.247316	98.538000	92.640000	99.994000	99.760000	
228	0.001000	0.046295	0.249218	98.726000	92.750000	100.000000	99.790000	
229	0.001000	0.043057	0.249268	98.834000	92.780000	99.994000	99.780000	
230	0.001000	0.041143	0.251592	98.898000	92.700000	99.998000	99.780000	
231	0.001000	0.040031	0.252390	98.914000	92.670000	99.998000	99.830000	
232	0.001000	0.037794	0.251506	98.992000	92.900000	100.000000	99.800000	
233	0.001000	0.036043	0.250024	99.088000	92.630000	99.998000	99.800000	
234	0.001000	0.034143	0.255491	99.134000	92.790000	99.994000	99.820000	
235	0.001000	0.033863	0.255050	99.142000	92.740000	100.000000	99.780000	
236	0.001000	0.031727	0.254344	99.238000	92.670000	99.998000	99.790000	
237	0.001000	0.031123	0.255403	99.290000	92.730000	100.000000	99.800000	
238	0.001000	0.030256	0.257807	99.256000	92.690000	99.998000	99.770000	
239	0.001000	0.029358	0.258301	99.306000	92.610000	99.998000	99.780000	
240	0.001000	0.028659	0.259251	99.344000	92.650000	100.000000	99.800000	
241	0.001000	0.028068	0.256792	99.342000	92.740000	100.000000	99.800000	
242	0.001000	0.026427	0.258691	99.406000	92.580000	100.000000	99.820000	
243	0.001000	0.027382	0.258538	99.360000	92.610000	99.998000	99.790000	
244	0.001000	0.025801	0.260506	99.396000	92.560000	99.998000	99.790000	
245	0.001000	0.026616	0.260807	99.392000	92.680000	99.996000	99.770000	
246	0.001000	0.024516	0.263359	99.464000	92.610000	99.998000	99.790000	
247	0.001000	0.024188	0.260496	99.484000	92.850000	100.000000	99.780000	
248	0.001000	0.024568	0.263952	99.444000	92.760000	99.998000	99.780000	
249	0.001000	0.024119	0.266823	99.478000	92.590000	99.998000	99.790000	
250	0.001000	0.023058	0.263106	99.512000	92.730000	99.998000	99.780000	
251	0.001000	0.022803	0.266063	99.488000	92.750000	100.000000	99.780000	
252	0.001000	0.023097	0.266745	99.476000	92.620000	100.000000	99.810000	
253	0.001000	0.022537	0.265338	99.522000	92.590000	100.000000	99.800000	
254	0.001000	0.021883	0.264971	99.526000	92.630000	100.000000	99.800000	
255	0.001000	0.021897	0.267318	99.492000	92.550000	100.000000	99.770000	
256	0.001000	0.020886	0.270243	99.588000	92.460000	100.000000	99.790000	
257	0.001000	0.021606	0.269658	99.526000	92.730000	100.000000	99.780000	
258	0.001000	0.020786	0.270126	99.554000	92.670000	100.000000	99.800000	
259	0.001000	0.020417	0.271685	99.602000	92.480000	100.000000	99.770000	
260	0.001000	0.020362	0.268992	99.584000	92.600000	100.000000	99.770000	
261	0.001000	0.020545	0.270856	99.544000	92.490000	100.000000	99.760000	
262	0.001000	0.019255	0.270131	99.622000	92.560000	100.000000	99.770000	
263	0.001000	0.019789	0.271950	99.604000	92.480000	100.000000	99.770000	
264	0.001000	0.018467	0.272329	99.660000	92.550000	100.000000	99.780000	
265	0.001000	0.018158	0.274799	99.654000	92.630000	100.000000	99.780000	
266	0.001000	0.018156	0.273950	99.648000	92.740000	100.000000	99.790000	
267	0.001000	0.018446	0.272141	99.630000	92.650000	100.000000	99.800000	
268	0.001000	0.017768	0.275353	99.676000	92.520000	99.998000	99.800000	
269	0.001000	0.018544	0.274176	99.590000	92.670000	100.000000	99.790000	
270	0.001000	0.017738	0.272760	99.652000	92.590000	100.000000	99.760000	
271	0.001000	0.017864	0.276240	99.646000	92.490000	100.000000	99.760000	
272	0.001000	0.017130	0.276568	99.670000	92.610000	100.000000	99.750000	
273	0.001000	0.016634	0.277437	99.710000	92.540000	100.000000	99.740000	
274	0.001000	0.017044	0.272348	99.654000	92.610000	100.000000	99.760000	
275	0.001000	0.016412	0.276758	99.682000	92.550000	100.000000	99.770000	
276	0.001000	0.016710	0.274103	99.682000	92.870000	100.000000	99.730000	
277	0.001000	0.017042	0.279130	99.632000	92.590000	100.000000	99.750000	
278	0.001000	0.015984	0.275626	99.722000	92.720000	100.000000	99.770000	
279	0.001000	0.015793	0.278115	99.720000	92.580000	100.000000	99.760000	
280	0.001000	0.015826	0.278082	99.682000	92.650000	100.000000	99.760000	
281	0.001000	0.016349	0.278879	99.676000	92.590000	100.000000	99.750000	
282	0.001000	0.015874	0.277079	99.738000	92.650000	100.000000	99.700000	
283	0.001000	0.016482	0.279302	99.678000	92.590000	100.000000	99.730000	
284	0.001000	0.015056	0.278418	99.724000	92.640000	100.000000	99.780000	
285	0.001000	0.015815	0.278848	99.704000	92.710000	100.000000	99.780000	
286	0.001000	0.015742	0.280523	99.696000	92.730000	100.000000	99.740000	
287	0.001000	0.015117	0.280241	99.724000	92.760000	100.000000	99.750000	
288	0.001000	0.014273	0.285564	99.756000	92.650000	100.000000	99.770000	
289	0.001000	0.014343	0.279319	99.754000	92.650000	100.000000	99.770000	
290	0.001000	0.014245	0.279750	99.750000	92.580000	100.000000	99.760000	
291	0.001000	0.014746	0.282067	99.732000	92.520000	100.000000	99.750000	
292	0.001000	0.014994	0.286684	99.728000	92.570000	100.000000	99.750000	
293	0.001000	0.015038	0.287977	99.710000	92.420000	100.000000	99.730000	
294	0.001000	0.013990	0.284567	99.764000	92.590000	99.998000	99.750000	
295	0.001000	0.014365	0.284586	99.726000	92.690000	100.000000	99.750000	
296	0.001000	0.014710	0.286514	99.700000	92.640000	100.000000	99.770000	
297	0.001000	0.014592	0.292152	99.716000	92.680000	99.998000	99.750000	
298	0.001000	0.014121	0.290285	99.778000	92.550000	100.000000	99.760000	
299	0.001000	0.014087	0.287056	99.748000	92.580000	100.000000	99.730000	
